File: [22-05-04] 22MayE02 MDM (Ag-SiO2-Ag)/FP_bRm.csv
Wavelength (nm),%T
1000,0.793989
999,0.79287
998,0.793346
997,0.793249
996,0.793025
995,0.792926
994,0.792799
993,0.793305
992,0.792663
991,0.792768
990,0.792804
989,0.79291
988,0.792766
987,0.792522
986,0.793089
985,0.792525
984,0.792798
983,0.792624
982,0.792686
981,0.792732
980,0.792333
979,0.792816
978,0.792027
977,0.792356
976,0.792163
975,0.792006
974,0.792098
973,0.791661
972,0.791707
971,0.791535
970,0.791466
969,0.791399
968,0.791172
967,0.79119
966,0.790848
965,0.790968
964,0.790772
963,0.79062
962,0.790572
961,0.790448
960,0.790382
959,0.790042
958,0.790259
957,0.789919
956,0.789887
955,0.789743
954,0.789814
953,0.789771
952,0.789666
951,0.789383
950,0.789483
949,0.789459
948,0.789099
947,0.789179
946,0.788973
945,0.788949
944,0.788539
943,0.788859
942,0.788556
941,0.788533
940,0.788407
939,0.787895
938,0.788254
937,0.787883
936,0.787498
935,0.787455
934,0.787325
933,0.787295
932,0.786633
931,0.786975
930,0.786471
929,0.786432
928,0.78577
927,0.785888
926,0.785547
925,0.785206
924,0.784984
923,0.784605
922,0.78414
921,0.784349
920,0.783749
919,0.78352
918,0.783077
917,0.78279
916,0.782386
915,0.782093
914,0.782016
913,0.781124
912,0.781235
911,0.780409
910,0.780368
909,0.779557
908,0.779493
907,0.778523
906,0.778449
905,0.777599
904,0.777294
903,0.776394
902,0.775982
901,0.775128
900,0.774083
899,0.773513
898,0.773249
897,0.772021
896,0.771288
895,0.769708
894,0.769288
893,0.767404
892,0.766789
891,0.764279
890,0.763434
889,0.761138
888,0.760194
887,0.757175
886,0.755827
885,0.752331
884,0.748645
883,0.746367
882,0.743919
881,0.739767
880,0.734986
879,0.72972
878,0.723771
877,0.717905
876,0.717429
875,0.71805
874,0.718285
873,0.719409
872,0.719808
871,0.720878
870,0.719723
869,0.721463
868,0.721857
867,0.72346
866,0.724001
865,0.725594
864,0.726306
863,0.727558
862,0.728401
861,0.729681
860,0.730146
859,0.731559
858,0.731349
857,0.732659
856,0.732149
855,0.732799
854,0.732315
853,0.733261
852,0.732883
851,0.733173
850,0.733365
849,0.73334
848,0.73355
847,0.73385
846,0.733909
845,0.734427
844,0.734495
843,0.73439
842,0.736477
841,0.736875
840,0.737011
839,0.737337
838,0.738056
837,0.738398
836,0.738767
835,0.73855
834,0.739306
833,0.739374
832,0.740075
831,0.739985
830,0.740286
829,0.740511
828,0.740773
827,0.74125
826,0.741283
825,0.741671
824,0.741583
823,0.741898
822,0.741935
821,0.742057
820,0.742596
819,0.742112
818,0.742106
817,0.742314
816,0.742696
815,0.742659
814,0.742552
813,0.742525
812,0.742556
811,0.74259
810,0.742411
809,0.742715
808,0.741993
807,0.741985
806,0.742109
805,0.741345
804,0.741524
803,0.74098
802,0.740737
801,0.740113
800,0.739971
799,0.739361
798,0.775745
797,0.775582
796,0.775816
795,0.77578
794,0.776629
793,0.777005
792,0.776789
791,0.777067
790,0.776638
789,0.776622
788,0.776626
787,0.777012
786,0.776753
785,0.776804
784,0.776778
783,0.776681
782,0.776968
781,0.776526
780,0.776691
779,0.776336
778,0.776382
777,0.776657
776,0.77623
775,0.776411
774,0.776444
773,0.776444
772,0.776633
771,0.776143
770,0.776298
769,0.776152
768,0.775883
767,0.776217
766,0.776189
765,0.77596
764,0.775931
763,0.776076
762,0.776019
761,0.775756
760,0.775502
759,0.775742
758,0.775567
757,0.775982
756,0.775688
755,0.77531
754,0.775135
753,0.774811
752,0.774894
751,0.775323
750,0.774911
749,0.774734
748,0.774703
747,0.774251
746,0.773962
745,0.773994
744,0.773654
743,0.773242
742,0.773042
741,0.773162
740,0.77317
739,0.772533
738,0.772229
737,0.772004
736,0.771772
735,0.771344
734,0.771648
733,0.771246
732,0.771149
731,0.770468
730,0.770722
729,0.770126
728,0.769822
727,0.769228
726,0.769337
725,0.76897
724,0.768479
723,0.768224
722,0.7677
721,0.767463
720,0.767042
719,0.766341
718,0.765265
717,0.76587
716,0.765714
715,0.764764
714,0.76444
713,0.762638
712,0.763449
711,0.763085
710,0.762427
709,0.761793
708,0.760377
707,0.760629
706,0.759962
705,0.759119
704,0.758142
703,0.757537
702,0.757845
701,0.757278
700,0.756802
699,0.755345
698,0.754569
697,0.754905
696,0.75383
695,0.752422
694,0.751601
693,0.750875
692,0.751098
691,0.749965
690,0.748713
689,0.747437
688,0.746932
687,0.746638
686,0.745039
685,0.744221
684,0.743216
683,0.74235
682,0.741199
681,0.740588
680,0.739354
679,0.738146
678,0.737224
677,0.73616
676,0.73508
675,0.733594
674,0.732451
673,0.731314
672,0.730127
671,0.72886
670,0.727478
669,0.726079
668,0.72467
667,0.723219
666,0.721867
665,0.720477
664,0.718972
663,0.717404
662,0.715973
661,0.71441
660,0.712989
659,0.711063
658,0.709547
657,0.707875
656,0.70597
655,0.704377
654,0.702432
653,0.700496
652,0.698567
651,0.696521
650,0.694897
649,0.692537
648,0.690551
647,0.688276
646,0.686264
645,0.683931
644,0.681505
643,0.679277
642,0.676613
641,0.674641
640,0.671635
639,0.669227
638,0.666469
637,0.663692
636,0.660998
635,0.658029
634,0.655223
633,0.652073
632,0.649115
631,0.645907
630,0.642446
629,0.639405
628,0.63566
627,0.63257
626,0.628533
625,0.625042
624,0.621015
623,0.61762
622,0.613622
621,0.609524
620,0.605514
619,0.601096
618,0.596992
617,0.592359
616,0.587914
615,0.5833882
614,0.578477
613,0.573823
612,0.568671
611,0.563708
610,0.558198
609,0.553204
608,0.547627
607,0.541161
606,0.535671
605,0.529477
604,0.523955
603,0.51758
602,0.511438
601,0.504756
600,0.498438
599,0.491644
598,0.484675
597,0.477477
596,0.470303
595,0.462961
594,0.455385
593,0.447617
592,0.43976
591,0.431748
590,0.42356
589,0.415391
588,0.406971
587,0.398748
586,0.390104
585,0.381186
584,0.372328
583,0.363112
582,0.353883
581,0.344798
580,0.335309
579,0.325572
578,0.316124
577,0.306412
576,0.29664
575,0.286769
574,0.276739
573,0.266716
572,0.256796
571,0.246634
570,0.236488
569,0.226498
568,0.216804
567,0.206908
566,0.197003
565,0.187433
564,0.177417
563,0.167935
562,0.158771
561,0.149623
560,0.140843
559,0.132299
558,0.123881
557,0.116086
556,0.108484
555,0.101041
554,0.0942916
553,0.0877215
552,0.0817435
551,0.0761112
550,0.0712151
549,0.0664061
548,0.0622918
547,0.0587489
546,0.0557922
545,0.0534018
544,0.05177487
543,0.0503276
542,0.0495909
541,0.0492376
540,0.0500218
539,0.0508176
538,0.05251969
537,0.0545987
536,0.057202
535,0.0605176
534,0.0641543
533,0.0683229
532,0.0732207
531,0.0779665
530,0.0837988
529,0.0896176
528,0.0960267
527,0.102848
526,0.109642
525,0.117014
524,0.124796
523,0.132596
522,0.140613
521,0.148969
520,0.157464
519,0.1659
518,0.174715
517,0.183581
516,0.192441
515,0.201449
514,0.210183
513,0.219468
512,0.228309
511,0.237315
510,0.246243
509,0.255118
508,0.264039
507,0.272784
506,0.281543
505,0.290116
504,0.298645
503,0.306841
502,0.315342
501,0.323385
500,0.331313
499,0.339419
498,0.346953
497,0.354561
496,0.361913
495,0.369355
494,0.37666
493,0.383387
492,0.390222
491,0.396641
490,0.403394
489,0.409589
488,0.415936
487,0.422098
486,0.427807
485,0.433803
484,0.439263
483,0.444582
482,0.450107
481,0.455335
480,0.460175
479,0.465208
478,0.470011
477,0.474401
476,0.479199
475,0.483383
474,0.487597
473,0.49133
472,0.495624
471,0.499602
470,0.503039
469,0.50705
468,0.510241
467,0.513805
466,0.517017
465,0.519877
464,0.523118
463,0.525961
462,0.5288
461,0.531233
460,0.533769
459,0.536656
458,0.539653
457,0.541821
456,0.54363
455,0.545639
454,0.546719
453,0.548828
452,0.550654
451,0.553258
450,0.554499
449,0.555775
448,0.557378
447,0.558619
446,0.55999
445,0.561005
444,0.562117
443,0.563225
442,0.563575
441,0.565056
440,0.565659
439,0.566172
438,0.567163
437,0.567583
436,0.568327
435,0.568668
434,0.569482
433,0.569363
432,0.570207
431,0.569996
430,0.570305
429,0.570026
428,0.570034
427,0.569802
426,0.569145
425,0.569136
424,0.568903
423,0.568333
422,0.567339
421,0.56749
420,0.56653
419,0.565489
418,0.565135
417,0.56422
416,0.562923
415,0.562137
414,0.560823
413,0.559796
412,0.558348
411,0.557441
410,0.55492
409,0.554241
408,0.552459
407,0.550867
406,0.548225
405,0.546462
404,0.543994
403,0.542138
402,0.539537
401,0.537329
400,0.534504
399,0.532068
398,0.52885
397,0.525859
396,0.522742
395,0.519626
394,0.516221
393,0.512886
392,0.509044
391,0.505043
390,0.501258
389,0.497011
388,0.492747
387,0.488413
386,0.48362
385,0.479337
384,0.474246
383,0.470126
382,0.465521
381,0.461788
380,0.457414
379,0.454447
378,0.450789
377,0.447489
376,0.445125
375,0.441811
374,0.438661
373,0.435144
372,0.431527
371,0.427417
370,0.423803
369,0.419669
368,0.414381
367,0.409719
366,0.404735
365,0.400048
364,0.394481
363,0.389235
362,0.383344
361,0.377433
360,0.371829
359,0.3652
358,0.358591
357,0.35193
356,0.344934
355,0.337902
354,0.330488
353,0.323191
352,0.315245
351,0.307088
350,0.298508
349,0.2899
348,0.289574
347,0.279659
346,0.269481
345,0.259425
344,0.24905
343,0.23795
342,0.227699
341,0.216001
340,0.204861
339,0.193998
338,0.182158
337,0.1712261
336,0.160338
335,0.149201
334,0.139192
333,0.129229
332,0.120032
331,0.111364
330,0.103311
329,0.0962461
328,0.089321
327,0.083441
326,0.0781929
325,0.0741634
324,0.0702277
323,0.0674033
322,0.06523448
321,0.063438
320,0.0619091
319,0.0604664
318,0.0593713
317,0.0587568
316,0.057631
315,0.0570548
314,0.0558423
313,0.0558189
312,0.0547476
311,0.0548558
310,0.0544687
309,0.0541141
308,0.0538688
307,0.0537631
306,0.0537076
305,0.0537022
304,0.0533054
303,0.0535464
302,0.0539606
301,0.0540518
300,0.0540926