File: [22-05-04] 22MayE02 MDM (Ag-SiO2-Ag)/FP_Rm.csv
Wavelength (nm),%T
1000,0.965278
999,0.964925
998,0.964703
997,0.965074
996,0.964843
995,0.964652
994,0.9645
993,0.964759
992,0.964501
991,0.964208
990,0.964771
989,0.964249
988,0.96466
987,0.964246
986,0.964553
985,0.964248
984,0.964246
983,0.964219
982,0.964374
981,0.96399
980,0.964095
979,0.963926
978,0.963993
977,0.963515
976,0.963846
975,0.963343
974,0.963519
973,0.96337
972,0.963521
971,0.963289
970,0.962803
969,0.962927
968,0.962885
967,0.962665
966,0.962709
965,0.962589
964,0.962822
963,0.962244
962,0.962637
961,0.962181
960,0.962166
959,0.962159
958,0.961946
957,0.962266
956,0.962107
955,0.96202
954,0.961701
953,0.961764
952,0.961689
951,0.961435
950,0.961767
949,0.961169
948,0.961563
947,0.961356
946,0.961368
945,0.961073
944,0.960897
943,0.960921
942,0.960609
941,0.961005
940,0.960766
939,0.960431
938,0.960783
937,0.960305
936,0.960338
935,0.960177
934,0.96026
933,0.96033
932,0.959836
931,0.960105
930,0.959442
929,0.959971
928,0.959562
927,0.959181
926,0.959365
925,0.959203
924,0.959172
923,0.958973
922,0.958496
921,0.958692
920,0.9583375
919,0.95829
918,0.958047
917,0.958125
916,0.957944
915,0.957947
914,0.957983
913,0.957497
912,0.957896
911,0.957281
910,0.957325
909,0.957063
908,0.957056
907,0.956966
906,0.956686
905,0.956785
904,0.956335
903,0.956231
902,0.956471
901,0.955797
900,0.955885
899,0.955291
898,0.955614
897,0.955524
896,0.955306
895,0.955319
894,0.955284
893,0.955107
892,0.954721
891,0.954346
890,0.954398
889,0.953706
888,0.954319
887,0.953571
886,0.953567
885,0.952917
884,0.952509
883,0.952718
882,0.952309
881,0.951861
880,0.950865
879,0.950912
878,0.950636
877,0.949251
876,0.949446
875,0.948069
874,0.947792
873,0.94699
872,0.946153
871,0.944871
870,0.944197
869,0.94353
868,0.942595
867,0.941307
866,0.941167
865,0.939488
864,0.939018
863,0.937355
862,0.936537
861,0.933611
860,0.933066
859,0.930711
858,0.92926
857,0.929528
856,0.929374
855,0.929786
854,0.928974
853,0.928949
852,0.928784
851,0.928274
850,0.928611
849,0.925846
848,0.925827
847,0.925202
846,0.925225
845,0.925027
844,0.924782
843,0.924447
842,0.925746
841,0.926123
840,0.925336
839,0.925518
838,0.925258
837,0.924968
836,0.925123
835,0.92409
834,0.924792
833,0.924054
832,0.923993
831,0.923898
830,0.923035
829,0.923259
828,0.922682
827,0.922982
826,0.92258
825,0.922341
824,0.922118
823,0.921782
822,0.921803
821,0.921238
820,0.92134
819,0.920815
818,0.920408
817,0.920771
816,0.920435
815,0.919977
814,0.920183
813,0.919959
812,0.919881
811,0.919245
810,0.919833
809,0.919467
808,0.919221
807,0.919054
806,0.918971
805,0.918821
804,0.918564
803,0.918437
802,0.917987
801,0.917789
800,0.917765
799,0.917633
798,0.932466
797,0.932209
796,0.932102
795,0.931174
794,0.931552
793,0.931135
792,0.930503
791,0.930811
790,0.92976
789,0.930064
788,0.929766
787,0.92959
786,0.929204
785,0.928799
784,0.928644
783,0.927702
782,0.927973
781,0.927733
780,0.927009
779,0.926823
778,0.926459
777,0.926273
776,0.92564
775,0.9259
774,0.925469
773,0.925026
772,0.925089
771,0.924036
770,0.924221
769,0.923721
768,0.923027
767,0.923092
766,0.922558
765,0.922232
764,0.9213567
763,0.921713
762,0.920754
761,0.920741
760,0.919758
759,0.919578
758,0.919103
757,0.918884
756,0.918511
755,0.917876
754,0.917701
753,0.916819
752,0.916548
751,0.916217
750,0.916001
749,0.915442
748,0.914839
747,0.9143
746,0.9138
745,0.91361
744,0.913099
743,0.912467
742,0.911925
741,0.911345
740,0.911073
739,0.910381
738,0.909516
737,0.909778
736,0.908857
735,0.908096
734,0.907928
733,0.907425
732,0.906995
731,0.905868
730,0.906004
729,0.90523
728,0.904263
727,0.90425
726,0.903453
725,0.902795
724,0.901752
723,0.901158
722,0.900274
721,0.899621
720,0.899442
719,0.898197
718,0.897638
717,0.896879
716,0.896454
715,0.895312
714,0.894701
713,0.893829
712,0.892826
711,0.8925
710,0.891538
709,0.890677
708,0.890151
707,0.88889
706,0.888147
705,0.887004
704,0.886579
703,0.885782
702,0.884933
701,0.884401
700,0.883314
699,0.882554
698,0.881265
697,0.880768
696,0.879408
695,0.878453
694,0.877606
693,0.876312
692,0.875624
691,0.874224
690,0.873158
689,0.871692
688,0.871057
687,0.869875
686,0.868296
685,0.867523
684,0.866136
683,0.864829
682,0.863836
681,0.862472
680,0.861165
679,0.85951
678,0.85824
677,0.856836
676,0.855663
675,0.854119
674,0.85245
673,0.851247
672,0.849671
671,0.848432
670,0.846563
669,0.845002
668,0.843428
667,0.84166
666,0.840086
665,0.838537
664,0.83674
663,0.834786
662,0.83333
661,0.831249
660,0.829626
659,0.827713
658,0.825777
657,0.82341
656,0.821607
655,0.819402
654,0.8174975
653,0.815237
652,0.812977
651,0.810623
650,0.808504
649,0.806337
648,0.803676
647,0.801261
646,0.798696
645,0.796097
644,0.793409
643,0.790757
642,0.787825
641,0.785323
640,0.782297
639,0.77902
638,0.776192
637,0.7732266
636,0.770124
635,0.766962
634,0.763324
633,0.760368
632,0.757012
631,0.752698
630,0.748886
629,0.745644
628,0.741817
627,0.738376
626,0.734076
625,0.730336
624,0.726146
623,0.72207
622,0.717797
621,0.71358
620,0.709276
619,0.704347
618,0.699779
617,0.694728
616,0.689959
615,0.684814
614,0.679681
613,0.674555
612,0.668797
611,0.663438
610,0.657394
609,0.65198
608,0.645653
607,0.639642
606,0.633436
605,0.62692
604,0.620806
603,0.613931
602,0.606922
601,0.599839
600,0.592739
599,0.585733
598,0.577879
597,0.570414
596,0.562482
595,0.554558
594,0.545722
593,0.537255
592,0.528698
591,0.520197
590,0.511405
589,0.502423
588,0.493462
587,0.484218
586,0.474864
585,0.465181
584,0.455473
583,0.445682
582,0.435585
581,0.425598
580,0.415306
579,0.4046324
578,0.39472
577,0.384006
576,0.373284
575,0.362574
574,0.35159
573,0.340724
572,0.329681
571,0.318711
570,0.30756
569,0.296691
568,0.285874
567,0.274746
566,0.263969
565,0.253619
564,0.242701
563,0.232485
562,0.222324
561,0.212546
560,0.202808
559,0.193488
558,0.184446
557,0.175747
556,0.167376
555,0.159385
554,0.151969
553,0.144862
552,0.138284
551,0.13227
550,0.126747
549,0.121829
548,0.11737
547,0.113273
546,0.110175
545,0.107551
544,0.105511
543,0.103945
542,0.103081
541,0.102818
540,0.103448
539,0.104462
538,0.105927
537,0.108298
536,0.111029
535,0.114427
534,0.118215
533,0.122666
532,0.127494
531,0.132779
530,0.138872
529,0.145069
528,0.151556
527,0.158634
526,0.165818
525,0.173608
524,0.181547
523,0.189742
522,0.198111
521,0.206676
520,0.215465
519,0.224302
518,0.233237
517,0.242483
516,0.251696
515,0.261014
514,0.269992
513,0.279442
512,0.288872
511,0.297829
510,0.30722
509,0.3164
508,0.325598
507,0.334599
506,0.343542
505,0.352449
504,0.3611
503,0.369751
502,0.378213
501,0.386422
500,0.394468
499,0.402636
498,0.41022
497,0.418103
496,0.425612
495,0.433041
494,0.440581
493,0.447514
492,0.454598
491,0.461203
490,0.468019
489,0.474311
488,0.481069
487,0.487147
486,0.493114
485,0.499316
484,0.504653
483,0.509966
482,0.51573
481,0.520899
480,0.526209
479,0.531107
478,0.535885
477,0.540405
476,0.545213
475,0.550587
474,0.554938
473,0.558978
472,0.562952
471,0.567093
470,0.570626
469,0.574719
468,0.578
467,0.58184
466,0.584663
465,0.587811
464,0.591248
463,0.59401
462,0.596902
461,0.599495
460,0.602072
459,0.604834
458,0.606921
457,0.609545
456,0.611299
455,0.613367
454,0.615414
453,0.61731
452,0.619268
451,0.620847
450,0.622251
449,0.62356
448,0.62498
447,0.626316
446,0.627697
445,0.628513
444,0.6297
443,0.630449
442,0.631217
441,0.632144
440,0.632981
439,0.633282
438,0.634001
437,0.634542
436,0.634525
435,0.635116
434,0.635097
433,0.635072
432,0.634968
431,0.634936
430,0.63482
429,0.634522
428,0.633578
427,0.633288
426,0.632328
425,0.631722
424,0.630775
423,0.630219
422,0.62874
421,0.627796
420,0.626442
419,0.625135
418,0.623567
417,0.622383
416,0.620584
415,0.618565
414,0.617203
413,0.615171
412,0.61289
411,0.610687
410,0.608465
409,0.605957
408,0.603308
407,0.600603
406,0.598066
405,0.594618
404,0.592149
403,0.5887
402,0.585495
401,0.581627
400,0.578332
399,0.574897
398,0.57085
397,0.566966
396,0.562686
395,0.557864
394,0.553199
393,0.549245
392,0.543265
391,0.539385
390,0.534025
389,0.52876
388,0.523597
387,0.518269
386,0.512767
385,0.506871
384,0.501151
383,0.495909
382,0.490099
381,0.484124
380,0.478445
379,0.472659
378,0.466765
377,0.460891
376,0.455355
375,0.449752
374,0.44448
373,0.438493
372,0.432944
371,0.426655
370,0.421407
369,0.416355
368,0.410008
367,0.404408
366,0.398675
365,0.393184
364,0.387372
363,0.381388
362,0.375371
361,0.369734
360,0.362888
359,0.356316
358,0.35015
357,0.343186
356,0.337044
355,0.330437
354,0.323962
353,0.316454
352,0.309358
351,0.302251
350,0.294628
349,0.28753
348,0.280494
347,0.27247
346,0.263922
345,0.254775
344,0.245773
343,0.236256
342,0.226553
341,0.215786
340,0.205069
339,0.193096
338,0.181523
337,0.169955
336,0.157854
335,0.145503
334,0.133021
333,0.121079
332,0.108118
331,0.0960081
330,0.08457897
329,0.0725404
328,0.0616409
327,0.0515202
326,0.04208206
325,0.03412989
324,0.0264638
323,0.0202751
322,0.014098
321,0.0102848
320,0.006993119
319,0
318,0
317,0
316,0
315,0
314,0.002233771
313,0.00352209
312,0.008232054
311,0.0103791
310,0.0145337
309,0.0161999
308,0.0199452
307,0.0230296
306,0.0256919
305,0.0291512
304,0.0318415
303,0.0347972
302,0.0378047
301,0.04035244
300,0.0430719