File: [22-05-04] 22MayE02 MDM (Ag-SiO2-Ag)/FP_Tm.csv
Wavelength (nm),%T
1000,0.00430701
999,0.004277014
998,0.004380295
997,0.004424722
996,0.004392388
995,0.004448997
994,0.00445278
993,0.004467953
992,0.004485283
991,0.004457867
990,0.004514036
989,0.004492654
988,0.004541556
987,0.004562133
986,0.004511983
985,0.004676437
984,0.00457526
983,0.004643437
982,0.004633869
981,0.004698643
980,0.004706535
979,0.004720018
978,0.004743885
977,0.004809248
976,0.004771254
975,0.0048289
974,0.004890407
973,0.004859624
972,0.004899602
971,0.00483713
970,0.005012166
969,0.005068574
968,0.005062763
967,0.005067586
966,0.004998632
965,0.004998257
964,0.005128792
963,0.005135309
962,0.005136121
961,0.005258166
960,0.00525515
959,0.005292608
958,0.005226312
957,0.005312489
956,0.005247326
955,0.005337994
954,0.005366149
953,0.005401915
952,0.005406681
951,0.005485027
950,0.005438103
949,0.005514332
948,0.005520928
947,0.005555407
946,0.005572238
945,0.005649719
944,0.005580517
943,0.005745052
942,0.005737229
941,0.005700789
940,0.005781806
939,0.005832089
938,0.005869583
937,0.005851667
936,0.005924722
935,0.005953605
934,0.00599634
933,0.006030139
932,0.006121149
931,0.00605415
930,0.006152424
929,0.006127937
928,0.006196413
927,0.006156503
926,0.006283905
925,0.006394022
924,0.006322433
923,0.006319801
922,0.00640567
921,0.006456704
920,0.006446297
919,0.006449457
918,0.006494786
917,0.006585426
916,0.006594447
915,0.006643175
914,0.006647389
913,0.006704257
912,0.006764803
911,0.006804916
910,0.006782113
909,0.006862347
908,0.006913075
907,0.006958812
906,0.006958776
905,0.006951809
904,0.007082056
903,0.007121685
902,0.007164132
901,0.007186887
900,0.007286789
899,0.007212808
898,0.0074983
897,0.007423824
896,0.007529556
895,0.007481491
894,0.007436938
893,0.00765052
892,0.007670029
891,0.007574529
890,0.007786463
889,0.007819493
888,0.007830188
887,0.007818086
886,0.007960717
885,0.007886413
884,0.007990069
883,0.008118868
882,0.008119729
881,0.008178505
880,0.008224683
879,0.008245412
878,0.008406957
877,0.008345688
876,0.008386406
875,0.008468565
874,0.008552851
873,0.008605542
872,0.00871031
871,0.008636567
870,0.008648283
869,0.008915098
868,0.008912504
867,0.008963714
866,0.008993372
865,0.0090663
864,0.009106337
863,0.009142919
862,0.009187139
861,0.009271392
860,0.009437167
859,0.009487754
858,0.009554712
857,0.009660964
856,0.009686066
855,0.009710622
854,0.009827824
853,0.009777272
852,0.00990132
851,0.009970935
850,0.0100887
849,0.01015605
848,0.0101369
847,0.010255
846,0.0103702
845,0.0104336
844,0.0104475
843,0.0105667
842,0.0106924
841,0.0107161
840,0.010752
839,0.0109713
838,0.0109244
837,0.0110389
836,0.0110805
835,0.0112634
834,0.011334
833,0.0113933
832,0.0115137
831,0.0115151
830,0.0117261
829,0.0117798
828,0.0118536
827,0.0120975
826,0.0119836
825,0.0121303
824,0.01228822
823,0.0123664
822,0.0124035
821,0.0126034
820,0.0126751
819,0.0127088
818,0.0128128
817,0.0128752
816,0.0131519
815,0.0130937
814,0.013178
813,0.0133532
812,0.0133634
811,0.0135435
810,0.0136531
809,0.0137738
808,0.0137466
807,0.0140323
806,0.0141272
805,0.01421853
804,0.01429296
803,0.0144717
802,0.0145119
801,0.01474476
800,0.0148106
799,0.0149562
798,0.014669
797,0.01480094
796,0.0149528
795,0.0150784
794,0.0151673
793,0.015286
792,0.0154944
791,0.0155965
790,0.0157901
789,0.0159715
788,0.0160039
787,0.01613327
786,0.0163299
785,0.0163624
784,0.0166285
783,0.0166784
782,0.0169035
781,0.0170166
780,0.0171354
779,0.0173451
778,0.0174763
777,0.01763
776,0.017787
775,0.0179812
774,0.01814597
773,0.0182965
772,0.0184922
771,0.01863747
770,0.0188434
769,0.0190032
768,0.0192254
767,0.019401
766,0.019611
765,0.0197747
764,0.02002086
763,0.0202027
762,0.0203434
761,0.0206006
760,0.0208041
759,0.0209849
758,0.0212545
757,0.0213987
756,0.0216657
755,0.0218917
754,0.0220854
753,0.0222954
752,0.0225023
751,0.02275251
750,0.0229865
749,0.0232677
748,0.0234927
747,0.0237496
746,0.0240212
745,0.0242293
744,0.0245212
743,0.024785
742,0.0250295
741,0.025314
740,0.02556886
739,0.0258357
738,0.0261602
737,0.0263941
736,0.0267054
735,0.0270423
734,0.0273005
733,0.0275564
732,0.027919
731,0.0282332
730,0.0285598
729,0.0289078
728,0.02923731
727,0.0295524
726,0.0299389
725,0.0303037
724,0.0306369
723,0.0310025
722,0.0313892
721,0.0317406
720,0.032135
719,0.0325554
718,0.0329372
717,0.0333515
716,0.0337098
715,0.0341402
714,0.0346068
713,0.0349539
712,0.0353369
711,0.03578259
710,0.0362517
709,0.0367278
708,0.0371501
707,0.0375977
706,0.0381455
705,0.0386241
704,0.039126
703,0.03958259
702,0.0401513
701,0.0406433
700,0.0411728
699,0.0417955
698,0.042318
697,0.04290278
696,0.0434976
695,0.044127
694,0.0447826
693,0.0453227
692,0.0459216
691,0.0465765
690,0.0472403
689,0.047904
688,0.0485403
687,0.0492941
686,0.0499483
685,0.0506464
684,0.0513425
683,0.0521499
682,0.0529267
681,0.0536849
680,0.05446231
679,0.0553016
678,0.0561192
677,0.056985
676,0.0578315
675,0.05867372
674,0.059606
673,0.0605424
672,0.0614391
671,0.0624402
670,0.0634276
669,0.064345
668,0.065373
667,0.0663936
666,0.0675407
665,0.0685201
664,0.0696011
663,0.070793
662,0.0719731
661,0.0730914
660,0.0743322
659,0.0755514
658,0.0767958
657,0.0781242
656,0.0794471
655,0.08078457
654,0.0822578
653,0.0837004
652,0.0851658
651,0.0866639
650,0.0881994
649,0.0897033
648,0.0912429
647,0.0929786
646,0.0946381
645,0.096432
644,0.0981533
643,0.0999045
642,0.101773
641,0.103556
640,0.105513
639,0.107457
638,0.109589
637,0.111703
636,0.113796
635,0.115983
634,0.118228
633,0.120516
632,0.122899
631,0.125364
630,0.12792
629,0.130398
628,0.133026
627,0.135713
626,0.138461
625,0.141293
624,0.144128
623,0.147173
622,0.150303
621,0.153474
620,0.156576
619,0.159994
618,0.16345
617,0.16689
616,0.170553
615,0.174062
614,0.17796
613,0.181693
612,0.185489
611,0.189677
610,0.193648
609,0.198039
608,0.202346
607,0.206978
606,0.211684
605,0.216512
604,0.221605
603,0.226551
602,0.231858
601,0.237031
600,0.242632
599,0.248414
598,0.2542081
597,0.260131
596,0.265826
595,0.272078
594,0.278492
593,0.285117
592,0.29156
591,0.298305
590,0.305307
589,0.312726
588,0.320095
587,0.32726
586,0.335271
585,0.342725
584,0.350605
583,0.35894
582,0.36715
581,0.376797
580,0.385105
579,0.394351
578,0.403022
577,0.412153
576,0.421051
575,0.430927
574,0.440407
573,0.449735
572,0.459228
571,0.468914
570,0.477998
569,0.488205
568,0.497717
567,0.507594
566,0.516992
565,0.526907
564,0.536518
563,0.546404
562,0.556226
561,0.565656
560,0.57468
559,0.584211
558,0.593019
557,0.601852
556,0.610132
555,0.618666
554,0.626363
553,0.633964
552,0.641266
551,0.648207
550,0.655025
549,0.661043
548,0.665799
547,0.671756
546,0.676156
545,0.680706
544,0.684399
543,0.687594
542,0.690162
541,0.692516
540,0.693686
539,0.695477
538,0.696101
537,0.696102
536,0.696323
535,0.695662
534,0.694637
533,0.693289
532,0.690395
531,0.687938
530,0.684572
529,0.681031
528,0.677415
527,0.673786
526,0.669634
525,0.664536
524,0.659082
523,0.653551
522,0.64791
521,0.642287
520,0.636118
519,0.630059
518,0.624102
517,0.617419
516,0.610353
515,0.604365
514,0.597307
513,0.590123
512,0.583393
511,0.576711
510,0.569731
509,0.56255
508,0.555897
507,0.548784
506,0.542035
505,0.534901
504,0.528733
503,0.521604
502,0.514659
501,0.508077
500,0.501425
499,0.494276
498,0.488558
497,0.482034
496,0.475932
495,0.469971
494,0.463863
493,0.458213
492,0.452437
491,0.446688
490,0.441205
489,0.435499
488,0.4305133
487,0.425535
486,0.420237
485,0.415449
484,0.410346
483,0.405652
482,0.401076
481,0.396522
480,0.391922
479,0.38756
478,0.383106
477,0.378942
476,0.373772
475,0.370816
474,0.366992
473,0.363029
472,0.358488
471,0.354793
470,0.351095
469,0.348279
468,0.344698
467,0.341392
466,0.338445
465,0.335217
464,0.332344
463,0.329363
462,0.327054
461,0.324066
460,0.321499
459,0.319101
458,0.316328
457,0.314195
456,0.311665
455,0.309766
454,0.307705
453,0.305559
452,0.303897
451,0.301843
450,0.300205
449,0.298179
448,0.296753
447,0.295506
446,0.293761
445,0.292184
444,0.290861
443,0.28962
442,0.288293
441,0.287187
440,0.285914
439,0.284905
438,0.284098
437,0.282841
436,0.282007
435,0.281085
434,0.280221
433,0.279478
432,0.278849
431,0.27827
430,0.277731
429,0.277497
428,0.276819
427,0.276741
426,0.276132
425,0.276187
424,0.276153
423,0.275759
422,0.275842
421,0.275994
420,0.275812
419,0.276403
418,0.276138
417,0.276916
416,0.276606
415,0.277912
414,0.278071
413,0.278677
412,0.279379
411,0.279652
410,0.280661
409,0.281275
408,0.282371
407,0.283266
406,0.28379
405,0.285061
404,0.285756
403,0.287024
402,0.287668
401,0.289397
400,0.290115
399,0.291087
398,0.292566
397,0.29348
396,0.294687
395,0.295705
394,0.296971
393,0.29784
392,0.299473
391,0.300522
390,0.301403
389,0.302567
388,0.303401
387,0.304505
386,0.305889
385,0.306586
384,0.308096
383,0.309031
382,0.310296
381,0.312368
380,0.313318
379,0.315366
378,0.316745
377,0.319155
376,0.32125
375,0.323792
374,0.325813
373,0.327917
372,0.330221
371,0.332256
370,0.334622
369,0.336416
368,0.33883
367,0.341635
366,0.343722
365,0.346621
364,0.349567
363,0.351927
362,0.354487
361,0.358122
360,0.361565
359,0.36497
358,0.369088
357,0.371901
356,0.375428
355,0.379886
354,0.383519
353,0.388332
352,0.392621
351,0.397339
350,0.402092
349,0.406685
348,0.412015
347,0.418472
346,0.422926
345,0.42838
344,0.433538
343,0.439063
342,0.44383
341,0.448407
340,0.452861
339,0.455902
338,0.459486
337,0.461259
336,0.463158
335,0.462664
334,0.461901
333,0.460068
332,0.455584
331,0.450517
330,0.442889
329,0.434393
328,0.42272
327,0.410006
326,0.395732
325,0.379881
324,0.361991
323,0.343056
322,0.323369
321,0.301495
320,0.279509
319,0.256546
318,0.23423
317,0.211389
316,0.189289
315,0.167911
314,0.147236
313,0.127786
312,0.109389
311,0.0928785
310,0.0775866
309,0.0643469
308,0.0522824
307,0.0422379
306,0.0336014
305,0.0262403
304,0.0203844
303,0.0155623
302,0.0117881
301,0.00879354
300,0.00649715